Folder: Anode_Data_Wrangling/BaselineB3Data

Note: BaselineB3Data/4_01_22_BaselineB3_run4.txt
0.000000e+000	-3.306566e-001
9.997000e+000	-3.503557e-001
2.002800e+001	-3.424196e-001
3.002900e+001	-3.439716e-001
4.004000e+001	-3.446321e-001
5.006100e+001	-3.303196e-001
6.007100e+001	-3.379106e-001
7.007200e+001	-3.419257e-001
8.010300e+001	-3.366937e-001
9.010300e+001	-3.394117e-001
1.001130e+002	-3.314897e-001
1.101230e+002	-3.245138e-001
1.201230e+002	-3.102808e-001
1.301330e+002	-3.240209e-001
1.401440e+002	-3.443502e-001
1.501430e+002	-3.203973e-001
1.601540e+002	-3.404567e-001
1.701640e+002	-3.418351e-001
1.801560e+002	-3.422471e-001
1.901550e+002	-3.466306e-001
2.001640e+002	-3.243020e-001
2.101740e+002	-3.492385e-001
2.201750e+002	-3.559420e-001
2.301860e+002	-3.380796e-001
2.401760e+002	-3.136309e-001
2.502180e+002	-3.359427e-001
2.602070e+002	-3.428874e-001
2.702070e+002	-3.278909e-001
2.802180e+002	-3.274348e-001
2.902280e+002	-3.345604e-001
3.002280e+002	-3.483586e-001
3.102190e+002	-3.290761e-001
3.202290e+002	-3.339391e-001
3.302100e+002	-3.374555e-001
3.402200e+002	-3.399511e-001
3.502300e+002	-3.222854e-001
3.602300e+002	-3.407939e-001
3.702600e+002	-3.278540e-001
3.802690e+002	-3.181443e-001
3.902700e+002	-3.189904e-001
4.002800e+002	-3.633710e-001
4.102800e+002	-3.141804e-001
4.203100e+002	-3.371197e-001
4.303200e+002	-3.537365e-001
4.403200e+002	-3.405784e-001
4.503310e+002	-3.464273e-001
4.603310e+002	-3.369195e-001
4.703610e+002	-3.404184e-001
4.803530e+002	-3.317327e-001
4.903530e+002	-3.296928e-001
5.003630e+002	-3.263259e-001
5.103630e+002	-3.788083e-001
5.203730e+002	-3.733833e-001
5.303830e+002	-3.794626e-001
5.403840e+002	-3.521991e-001
5.503940e+002	-3.700468e-001
5.604040e+002	-3.568114e-001
5.703870e+002	-3.590950e-001
5.803990e+002	-3.804217e-001
5.903990e+002	-3.866924e-001
6.004290e+002	-3.804259e-001
6.104300e+002	-3.699336e-001
6.204420e+002	-3.897492e-001
6.304520e+002	-3.746256e-001
6.404520e+002	-3.647607e-001
6.504620e+002	-3.638839e-001
6.604720e+002	-3.534998e-001
6.704740e+002	-3.707574e-001
6.804940e+002	-3.484244e-001
6.905240e+002	-3.752285e-001
7.005240e+002	-3.746979e-001
7.105360e+002	-3.655983e-001
7.205570e+002	-3.572959e-001
7.305870e+002	-3.646407e-001
7.405790e+002	-3.731936e-001
7.506000e+002	-3.891684e-001
7.606010e+002	-3.760377e-001
7.706120e+002	-3.923615e-001
7.806320e+002	-3.625116e-001
7.906430e+002	-3.606610e-001
8.006540e+002	-3.477282e-001
8.106540e+002	-3.804043e-001
8.206640e+002	-3.740831e-001
8.306630e+002	-3.771287e-001
8.406730e+002	-3.695845e-001
8.506840e+002	-3.600607e-001
8.606840e+002	-3.635615e-001
8.707510e+002	-3.925233e-001
8.807140e+002	-3.581753e-001
8.907250e+002	-3.757865e-001
9.007270e+002	-3.747775e-001
9.107580e+002	-3.759173e-001
9.207580e+002	-3.756117e-001
9.307680e+002	-3.630765e-001
9.407590e+002	-3.644702e-001
9.507710e+002	-3.817531e-001
9.607700e+002	-3.824193e-001
9.707800e+002	-3.781179e-001
9.807800e+002	-3.712004e-001
9.907900e+002	-3.750196e-001


Note: BaselineB3Data/4_11_22_BaselineB3_run2 MOS Data.txt
0.000000e+000	-4.116999e-001
9.992000e+000	-4.120912e-001
1.999200e+001	-4.118483e-001
3.000200e+001	-4.192653e-001
4.000300e+001	-4.153825e-001
5.001400e+001	-4.236945e-001
6.003300e+001	-4.321077e-001
7.006400e+001	-4.159646e-001
8.006400e+001	-4.441594e-001
9.007600e+001	-4.283503e-001
1.000950e+002	-4.276535e-001
1.101060e+002	-4.105849e-001
1.201260e+002	-4.138650e-001
1.301860e+002	-4.549725e-001
1.401560e+002	-4.560984e-001
1.501660e+002	-4.259694e-001
1.601560e+002	-4.277471e-001
1.701680e+002	-4.413320e-001
1.801680e+002	-4.465470e-001
1.901780e+002	-4.375303e-001
2.001780e+002	-4.459436e-001
2.101880e+002	-4.430166e-001
2.201790e+002	-4.550870e-001
2.301990e+002	-4.369207e-001
2.402090e+002	-4.450550e-001
2.502190e+002	-4.673728e-001
2.602190e+002	-4.549643e-001
2.702290e+002	-4.547340e-001
2.802390e+002	-4.435647e-001
2.902290e+002	-4.746194e-001
3.002300e+002	-4.608589e-001
3.102400e+002	-4.852912e-001
3.202390e+002	-4.663662e-001
3.302510e+002	-4.814077e-001
3.402610e+002	-4.711994e-001
3.502420e+002	-4.932198e-001
3.602520e+002	-4.686819e-001
3.702440e+002	-4.853568e-001
3.802640e+002	-4.804495e-001
3.902750e+002	-5.066840e-001
4.002950e+002	-5.118781e-001
4.103040e+002	-5.132628e-001
4.203150e+002	-4.948590e-001
4.302960e+002	-4.976757e-001
4.403070e+002	-5.155600e-001
4.503280e+002	-5.142023e-001
4.603380e+002	-5.259924e-001
4.703470e+002	-5.234805e-001
4.803470e+002	-5.166748e-001
4.903570e+002	-5.179616e-001
5.003780e+002	-5.500107e-001
5.103870e+002	-5.084868e-001
5.203980e+002	-5.686937e-001
5.303880e+002	-5.352628e-001
5.403870e+002	-5.167805e-001
5.503980e+002	-5.603340e-001
5.604080e+002	-5.350786e-001
5.704070e+002	-5.445221e-001
5.804180e+002	-5.157796e-001
5.904270e+002	-5.250999e-001
6.004490e+002	-5.468890e-001
6.104500e+002	-5.488955e-001
6.204800e+002	-5.235661e-001
6.304810e+002	-5.272787e-001
6.405110e+002	-5.399141e-001
6.505120e+002	-5.477627e-001
6.605420e+002	-5.435445e-001
6.705340e+002	-5.469207e-001
6.805340e+002	-5.667960e-001
6.905430e+002	-5.503552e-001
7.005540e+002	-5.525743e-001
7.105540e+002	-5.554885e-001
7.205450e+002	-5.561797e-001
7.305560e+002	-5.637401e-001
7.405580e+002	-5.612203e-001
7.505690e+002	-5.635787e-001
7.605700e+002	-5.677878e-001
7.705790e+002	-5.578659e-001
7.805800e+002	-5.924649e-001
7.906100e+002	-5.799066e-001
8.006480e+002	-5.906660e-001
8.106200e+002	-5.740996e-001
8.206310e+002	-5.774731e-001
8.306410e+002	-5.859641e-001
8.406620e+002	-5.917364e-001
8.506630e+002	-5.875543e-001
8.607100e+002	-5.603334e-001
8.707020e+002	-5.693724e-001
8.807030e+002	-5.873856e-001
8.907130e+002	-5.815104e-001
9.007140e+002	-6.037437e-001
9.107440e+002	-5.772225e-001
9.207440e+002	-5.922516e-001
9.307740e+002	-5.736437e-001
9.407740e+002	-5.861101e-001
9.507850e+002	-6.069125e-001
9.607950e+002	-5.963799e-001
9.707760e+002	-5.667039e-001
9.807860e+002	-5.920036e-001
9.907770e+002	-6.002130e-001


Note: README.md
# Anode_Data_Wrangling
processing and manipulating of electrochemical and mechanical data

File: BaselineB3Chronology.csv
cycle_number,max_stress,start_stress,stress_change,capacity_start_mAhg,capacity_end_mAhg,charge_current,c_rate
1,-0.12439,2.80782,-2.93221,285.502,303.229,-0.399111,0.08
2,1.79116,NaN,NaN,251.546,266.05,-0.399057,0.08
3,4.55929,5.44241,-0.883117,45.4521,235.115,-9.59687,2
4,3.71562,4.9275,-1.21188,54.2195,225.262,-9.59689,2
5,NaN,NaN,NaN,51.4811,219.293,-9.59684,2
6,NaN,NaN,NaN,48.5393,48.7309,-9.59685,2
7,NaN,NaN,NaN,41.1848,41.3848,-9.59687,2
8,2.89903,4.72377,-1.82474,33.1917,33.1917,-9.59688,2
9,2.3062,3.83236,-1.52616,29.8246,29.8246,-9.59687,2
10,1.61405,3.0157,-1.40165,27.7984,27.7984,-9.59686,2
11,-0.75273,2.35434,-3.10707,192.412,210.487,-0.959054,0.2
12,NaN,NaN,NaN,100.006,198.424,-4.79777,1
13,2.2771,5.53551,-3.25841,91.9177,190.371,-4.79777,1
14,2.99708,5.51743,-2.52035,86.0349,183.571,-4.79774,1
15,NaN,NaN,NaN,83.0936,83.1306,-4.79776,1
16,NaN,NaN,NaN,72.0638,72.5392,-4.79777,1
17,NaN,NaN,NaN,65.4457,65.6229,-4.79778,1
18,2.8596,5.15816,-2.29856,60.2982,172.694,-4.79775,1
19,3.87817,NaN,NaN,72.0635,168.188,-4.79776,1
20,4.23522,6.10495,-1.86972,69.1223,164.011,-4.79777,1
21,NaN,NaN,NaN,135.07,161.46,-1.99837,0.42
22,3.69078,6.5061,-2.81532,129.556,156.899,-1.99835,0.42
23,4.34978,6.55081,-2.20103,124.043,152.343,-1.99833,0.42
24,-5.33571,-0.0111269,-5.32458,161.406,176.434,-0.399099,0.08
25,-5.07239,0.252608,-5.325,118.477,134.952,-0.959076,0.2
26,-3.987,0.438877,-4.42588,112.012,127.243,-0.959111,0.2
27,-1.15798,0.657268,-1.81524,67.6472,116.696,-2.39875,0.5
28,NaN,NaN,NaN,54.7786,109.955,-2.39873,0.5
29,0.27214,0.803084,-0.530945,46.6907,103.866,-2.39874,0.5
30,0.839104,0.849993,-0.0108889,40.0733,40.4754,-2.39875,0.5
31,0.683064,0.807246,-0.124182,36.0292,36.167,-2.39875,0.5
32,0.535949,1.01002,-0.474073,32.3528,32.5866,-2.39874,0.5
33,0.507622,0.990958,-0.483336,29.779,30.0467,-2.39875,0.5
34,0.559896,1.10326,-0.543368,27.5733,27.7669,-2.39877,0.5
35,0.0167438,1.14941,-1.13267,69.9721,93.341,-0.959137,0.2
36,NaN,NaN,NaN,10.5512,79.4933,-4.79781,1
37,NaN,NaN,NaN,9.66421,75.9791,-4.7978,1
38,NaN,NaN,NaN,8.82419,72.625,-4.79785,1
39,NaN,NaN,NaN,8.00346,8.00346,-4.79783,1
40,NaN,NaN,NaN,7.64286,7.64286,-4.79783,1
41,1.68248,1.74079,-0.0583049,7.45379,7.45379,-4.79783,1
42,1.69055,1.73928,-0.0487269,7.33039,68.471,-4.79781,1
43,1.8632,1.93327,-0.0700647,6.98979,64.8459,-4.7978,1
44,NaN,NaN,NaN,6.52701,62.3315,-4.79782,1
45,NaN,NaN,NaN,15.9271,61.3342,-1.99842,0.42
46,NaN,NaN,NaN,14.3379,58.5097,-1.99839,0.42
47,NaN,NaN,NaN,12.8641,56.5998,-1.99838,0.42