Folder: Anode_Data_Wrangling/Baseline4Data

Note: Baseline4Data/2_18_22_Baseline4_run02_MOS_Data.txt
0.000000e+000	5.429622e-001
9.998000e+000	5.646841e-001
2.000800e+001	5.604793e-001
3.000800e+001	5.482954e-001
4.001800e+001	5.566065e-001
5.002800e+001	5.546345e-001
6.001800e+001	5.672483e-001
7.001800e+001	5.482106e-001
8.002900e+001	5.592325e-001
9.002900e+001	5.568947e-001
1.000390e+002	5.599347e-001
1.100500e+002	5.787914e-001
1.200490e+002	5.635703e-001
1.300800e+002	5.521262e-001
1.400900e+002	5.569326e-001
1.500900e+002	5.613861e-001
1.601000e+002	5.699071e-001
1.701100e+002	5.589886e-001
1.801090e+002	5.710262e-001
1.901010e+002	5.729172e-001
2.001120e+002	5.767243e-001
2.101320e+002	5.643148e-001
2.201420e+002	5.821293e-001
2.301420e+002	5.565504e-001
2.401520e+002	5.675629e-001
2.501540e+002	5.779139e-001
2.601640e+002	5.707112e-001
2.701830e+002	5.649260e-001
2.802140e+002	5.638133e-001
2.902140e+002	5.756300e-001
3.002450e+002	5.681717e-001
3.102450e+002	5.612432e-001
3.203000e+002	5.644074e-001
3.302760e+002	5.596760e-001
3.402860e+002	5.747717e-001
3.502960e+002	5.650904e-001
3.602960e+002	5.645969e-001
3.703080e+002	5.746726e-001
3.803280e+002	5.595736e-001
3.903390e+002	5.674109e-001
4.003590e+002	5.621096e-001
4.103690e+002	5.734172e-001
4.203790e+002	5.663271e-001
4.303790e+002	5.660039e-001
4.403890e+002	5.682840e-001
4.504000e+002	5.680159e-001
4.604000e+002	5.687505e-001
4.703910e+002	5.766864e-001
4.804130e+002	5.646883e-001
4.904240e+002	5.782559e-001
5.004440e+002	5.745703e-001
5.104550e+002	5.879584e-001
5.204650e+002	5.781240e-001
5.304650e+002	5.739327e-001
5.404750e+002	6.022114e-001
5.504850e+002	5.949185e-001
5.605060e+002	5.717967e-001
5.705160e+002	5.700695e-001
5.805370e+002	5.689309e-001
5.905380e+002	5.696175e-001
6.005660e+002	5.704237e-001
6.105680e+002	5.732408e-001
6.205980e+002	5.867760e-001
6.306080e+002	5.835022e-001
6.406080e+002	5.873781e-001
6.505990e+002	5.956591e-001
6.606190e+002	5.831298e-001
6.706300e+002	5.846715e-001
6.806410e+002	5.772206e-001
6.906620e+002	5.830828e-001
7.006630e+002	5.898376e-001
7.106930e+002	5.784091e-001
7.207020e+002	5.697012e-001
7.307030e+002	5.858888e-001
7.406940e+002	5.771855e-001
7.507140e+002	5.800418e-001
7.607260e+002	5.857178e-001
7.707360e+002	5.852792e-001
7.807360e+002	5.829835e-001
7.907270e+002	5.828251e-001
8.007380e+002	5.841314e-001
8.107370e+002	5.828884e-001
8.207470e+002	5.756456e-001
8.307490e+002	5.821779e-001
8.407970e+002	5.855086e-001
8.507800e+002	5.875724e-001
8.608100e+002	5.840807e-001
8.708110e+002	5.877724e-001
8.808220e+002	5.788842e-001
8.908330e+002	5.889037e-001
9.008340e+002	5.748339e-001
9.108430e+002	5.940191e-001
9.208540e+002	5.716289e-001
9.308750e+002	5.766505e-001
9.408850e+002	5.804101e-001
9.509060e+002	5.781664e-001
9.609070e+002	5.666353e-001
9.709370e+002	5.823708e-001
9.809370e+002	5.927277e-001
9.909940e+002	5.804631e-001
1.000969e+003	5.652306e-001
1.010999e+003	5.720340e-001
1.020999e+003	5.848485e-001
1.031011e+003

Note: Baseline4Data/2_18_22_Baseline4_run04_MOS_Data.txt
0.000000e+000	-1.773033e+000
1.000800e+001	-1.772515e+000
2.000800e+001	-1.763762e+000
3.000000e+001	-1.783499e+000
4.001000e+001	-1.760320e+000
5.000000e+001	-1.775607e+000
6.000100e+001	-1.778447e+000
7.001000e+001	-1.766365e+000
8.001000e+001	-1.753471e+000
9.005800e+001	-1.766838e+000
1.000510e+002	-1.793654e+000
1.101040e+002	-1.761219e+000
1.200820e+002	-1.774587e+000
1.300820e+002	-1.771388e+000
1.400910e+002	-1.758269e+000
1.501010e+002	-1.779066e+000
1.601210e+002	-1.765411e+000
1.701220e+002	-1.777790e+000
1.801530e+002	-1.768838e+000
1.901530e+002	-1.768736e+000
2.001630e+002	-1.770766e+000
2.101730e+002	-1.773217e+000
2.201730e+002	-1.759444e+000
2.301840e+002	-1.733548e+000
2.401940e+002	-1.727122e+000
2.501940e+002	-1.713756e+000
2.602040e+002	-1.700176e+000
2.702060e+002	-1.688002e+000
2.802170e+002	-1.651992e+000
2.902380e+002	-1.654018e+000
3.002490e+002	-1.626607e+000
3.102990e+002	-1.601650e+000
3.202800e+002	-1.586024e+000
3.303000e+002	-1.566036e+000
3.403100e+002	-1.552294e+000
3.503120e+002	-1.517537e+000
3.603720e+002	-1.497243e+000
3.703430e+002	-1.491469e+000
3.803540e+002	-1.476924e+000
3.903560e+002	-1.462640e+000
4.003660e+002	-1.449779e+000
4.103750e+002	-1.411172e+000
4.203770e+002	-1.404297e+000
4.304070e+002	-1.387348e+000
4.404080e+002	-1.368579e+000
4.504180e+002	-1.374612e+000
4.604280e+002	-1.337357e+000
4.704280e+002	-1.294456e+000
4.804380e+002	-1.325309e+000
4.904480e+002	-1.274531e+000
5.004300e+002	-1.245693e+000
5.104610e+002	-1.266520e+000
5.204610e+002	-1.234658e+000
5.304710e+002	-1.225414e+000
5.404620e+002	-1.195532e+000
5.504810e+002	-1.201172e+000
5.604920e+002	-1.168944e+000
5.704940e+002	-1.166160e+000
5.805030e+002	-1.150072e+000
5.905540e+002	-1.137053e+000
6.005350e+002	-1.141470e+000
6.105450e+002	-1.092632e+000
6.205260e+002	-1.104310e+000
6.305570e+002	-1.085879e+000
6.405580e+002	-1.089522e+000
6.505680e+002	-1.048649e+000
6.605780e+002	-1.045352e+000
6.705590e+002	-1.050700e+000
6.805900e+002	-1.026660e+000
6.905910e+002	-1.023729e+000
7.006200e+002	-1.003828e+000
7.106210e+002	-1.012019e+000
7.206300e+002	-9.890096e-001
7.306420e+002	-9.731951e-001
7.406420e+002	-9.687160e-001
7.506520e+002	-9.480623e-001
7.606620e+002	-9.471528e-001
7.706620e+002	-9.406626e-001
7.806720e+002	-9.292952e-001
7.906810e+002	-9.100413e-001
8.006630e+002	-8.933214e-001
8.106730e+002	-8.901061e-001
8.206830e+002	-8.976214e-001
8.306820e+002	-8.998127e-001
8.406930e+002	-8.740644e-001
8.507040e+002	-8.536678e-001
8.607040e+002	-8.647718e-001
8.707470e+002	-8.362822e-001
8.807250e+002	-8.449252e-001
8.907260e+002	-8.214331e-001
9.007170e+002	-7.971876e-001
9.107380e+002	-8.257084e-001
9.207480e+002	-7.998500e-001
9.307580e+002	-7.869154e-001
9.407480e+002	-7.982858e-001
9.507480e+002	-7.899824e-001
9.607580e+002	-7.600450e-001
9.707580e+002	-7.627337e-001
9.807880e+002	-7.352942e-001
9.907890e+002	-7.513997e-001


Note: README.md
# Anode_Data_Wrangling
processing and manipulating of electrochemical and mechanical data

File: Baseline4Chronology.csv
cycle_number,max_stress,start_stress,stress_change,capacity_start_mAhg,capacity_end_mAhg,charge_current
1,NaN,NaN,NaN,226.83,249.465,-0.448533
2,NaN,NaN,NaN,192.026,209.991,-0.448531
3,-0.840472,-0.0295874,-0.810884,43.4666,177.236,-7.19807
4,-0.534013,0.124839,-0.658852,41.2943,167.409,-7.19816
5,-0.174051,0.344087,-0.518138,35.6483,157.455,-7.19812
6,NaN,NaN,NaN,30.4273,148.612,-7.19813
7,NaN,NaN,NaN,27.6498,27.6498,-7.19807
8,0.433604,0.645745,-0.212141,26.0804,26.1708,-7.19808
9,0.514186,0.667485,-0.153299,24.8727,24.8727,-7.19812
10,0.566838,0.744267,-0.177428,23.7971,23.7971,-7.19813
11,-1.43803,0.912943,-2.35097,136.193,148.108,-0.448613
12,-0.393567,0.0118843,-0.405451,66.2744,139.252,-3.59852
13,NaN,-0.0252968,NaN,65.1909,136.303,-3.59851
14,NaN,NaN,NaN,61.3875,135.107,-3.59851
15,-0.428538,NaN,NaN,59.759,132.964,-3.5985
16,NaN,-0.0525888,NaN,128.888,136.445,-0.359293
17,-0.572491,-0.0807513,-0.49174,58.6711,59.1004,-3.59854
18,-0.587412,-0.0714586,-0.515953,57.0414,57.2488,-3.59849
19,-0.610616,-0.113211,-0.497406,54.8683,55.1445,-3.59851
20,-0.690053,-0.135682,-0.554371,52.6957,53.1668,-3.59853
21,-2.51877,-0.176858,-2.34191,124.879,132.763,-0.359387
22,-0.716882,-0.219472,-0.49741,52.6952,74.5674,-3.59851
23,-0.829685,-0.300688,-0.528997,51.0666,70.0615,-3.59851
24,-0.834179,-0.313629,-0.52055,47.8068,63.79,-3.59848
25,-2.63073,-0.314529,-2.3162,120.376,127.802,-0.359362
26,-0.511094,-0.37393,-0.137163,16.8257,122.893,-7.19804
27,-0.583727,NaN,NaN,16.5495,121.052,-7.19806
28,NaN,NaN,NaN,15.7618,119.189,-7.19806
29,NaN,NaN,NaN,15.142,117.545,-7.19809
30,NaN,-0.448272,NaN,111.365,117.283,-0.359346
31,NaN,NaN,NaN,41.8296,120.634,-3.59842
32,-0.751093,-0.349775,-0.401318,40.2002,118.069,-3.59845
33,NaN,NaN,NaN,38.0272,115.867,-3.59847
34,NaN,NaN,NaN,35.8542,113.996,-3.59846
35,-2.38868,-0.641547,-1.74713,103.006,108.803,-0.359299
36,NaN,NaN,NaN,11.9534,13.792,-7.19808
37,0.474973,0.621964,-0.146991,11.9534,13.415,-7.19808
38,0.581757,0.715908,-0.134151,11.9534,13.2384,-7.19807
39,0.691045,0.75348,-0.0624352,10.8668,13.0604,-7.19811
40,0.345976,0.805236,-0.45926,29.8792,105.191,-3.5985
41,NaN,NaN,NaN,29.3356,102.865,-3.59844
42,NaN,NaN,NaN,27.1624,101.404,-3.59841
43,NaN,NaN,NaN,24.9895,100.11,-3.59842
44,1.13533,1.43804,-0.302711,23.36,98.8379,-3.59846