Folder: Anode_Data_Wrangling/Pattern3

Note: README.md
# Anode_Data_Wrangling
processing and manipulating of electrochemical and mechanical data

File: Pattern3Chronology.csv
cycle_number,max_stress,start_stress,stress_change,chgcap_start_mAhg,chgcap_end_mAhg,dischgcap_end_mAhg,dischgcap_start_mAhg,charge_current,c_rate
1,-3.7447,-1.18782,-2.55688,277.87,298.079,234.725,242.889,-0.301043,0.08
2,-3.64552,-1.20939,-2.43614,260.955,261.583,238.74,247.077,-0.301011,0.08
3,-1.55095,-1.2855,-0.265448,44.7205,45.2559,39.2862,44.5451,-6.00071,1.63
4,-1.43585,-1.17022,-0.26563,42.0103,248.554,231.873,240.559,-6.0007,1.63
5,-4.24176,-1.30882,-2.93294,247.813,261.182,239.806,247.274,-0.30089,0.08
6,-1.63664,-1.57251,-0.0641293,50.1362,246.153,232.401,240.834,-6.00091,1.63
7,-1.72774,-1.67439,-0.0533448,48.7881,244.76,231.606,239.823,-6.00092,1.63
8,-1.70518,-1.70245,-0.00273244,18.5713,244.345,231.758,239.881,-12.0002,3.25
9,-1.9147,-1.90659,-0.0081031,18.9708,243.67,231.593,239.566,-12.0003,3.25
10,-4.61743,-1.95005,-2.66738,245.129,255.615,238.746,239.926,-0.301069,0.08