Folder: Anode_Data_Wrangling/Pattern6Data

Note: README.md
# Anode_Data_Wrangling
processing and manipulating of electrochemical and mechanical data

File: 3_28_22_pattern6run6_C13_I.mpt
EC-Lab ASCII FILE
Nb header lines : 67

Galvanostatic Cycling with Potential Limitation

Run on channel : 13 (SN 21786)
User :
CE vs. WE compliance from -10 V to 10 V
Electrode connection : standard
Ewe ctrl range : min = -5.00 V, max = 5.00 V
Safety Limits :
	Do not start on E overload
Acquisition started on : 03/28/2022 13:53:29
Technique started on : 03/28/2022 13:53:38
Saved on :
	File : 3_28_22_pattern6run6_C13.mpr
	Directory : E:\Catherine\
	Host : 192.109.209.129
Device : VMP3 (SN 0960)
Address : USB
EC-Lab for windows v11.17 (software)
Internet server v11.16 (firmware)
Command interpretor v11.16 (firmware)
Electrode material :
Initial state :
Electrolyte :
Comments :
Electrode surface area : 1.400 cm²
Characteristic mass : 5.290 g
Equivalent Weight : 0.000 g/eq.
Density : 0.000 g/cm3
Cycle Definition : Charge/Discharge alternance
Ns                  0                   1                   2                   3                   4
Set I/C             I                   I                   I                   I                   I
Is                  0.000               -1.400              1.400               -8.400              1.400
unit Is             mA                  mA                  mA                  mA                  mA
vs.                 <None>              <None>              <None>              <None>              <None>
N                   1.00                1.00                1.00                1.00                1.00
I sign              > 0                 > 0                 > 0                 > 0                 > 0
t1 (h:m:s)          0:00:0.0000         40:00:0.0000        40:00:0.0000        40:00:0.0000        40:00:0.0000
I Range             10 mA               10 mA               10 mA               10 mA               10 mA
Bandwidth           5                   5                   5                   5                   5
dE1 (mV)            0.00                0.00                0.00                0.00                0.00
dt1 (s)             0.0000              10.0000             10.0000             10.0000             10.0000
EM (V)              0.000               0.010               1.500               -0.050              1.500
tM (h:m:s)          0:00:0.0000         2:00:0.0000         2:00:0.0000         2:00:0.0000         2:00:0.0000
Im                  0.000               0.000               0.000               0.000               0.000
unit Im             mA                  mA                  mA                  mA                  mA
dI/dt               0.000               0.000               0.000               0.000               0.000
dunit dI/dt         mA/s                mA/s                mA/s                mA/s                mA/s
E range min (V)     -5.000              -5.000              -5.000              -5.000              -5.000
E range max (V)     5.000               5.000               5.000               5.000               5.000
dq                  0.000               0.000               0.000               0.000               0.000
unit dq             A.h                 A.h                 A.h                 A.h                 A.h
dtq (s)             0.0000              10.0000             10.0000             10.0000             10.0000
dQM                 0.000               0.000               0.000               0.000               0.000
unit dQM            mA.h                mA.h                mA.h                mA.h                mA.h
dxM                 0.000               0.000               0.000               0.000               0.000
tR (h:m:s)          0:00:0.0000         0:00:0.0000         0:00:0.0000         0:00:0.0000         0:00:0.0000
dER/dt (mV/h)       0.0                 0.0                 0.0                 0.0                 0.0
dER (mV)            0.00                0.00                0.00                0.00                0.00
dtR (s)             60.0000             120.0000            120.0000            120.0000            120.0000
EL (V)              pass                3.500               3.500               3.500               3.500
goto Ns'            0                   0                   0                   0                   4
nc cycles           0                   0                   0                   0                   2

mode	ox/red	error	control changes	Ns changes	counter inc.	Ns	time/s	dq/mA.h	(Q-Qo)/mA.h	control/V/mA	Ewe/V	Q charge/discharge/mA.h	half cycle	Energy charge/W.h	Energy discharge/W.h	Capacitance charge/µF	Capacitance discharge/µF	<I>/mA	Q discharge/mA.h	Q charge/mA.h	Capacity/mA.h	Efficiency/%	control/V	control/mA	cycle number	P/W
1	0	0	1	1	0	1	9.9994	-0.00387069	-0.00387069	-1.4	0.684048	-0.00387069	0	0.000000000000000E+000	-2.64774e-06	0.000000000000000E+000	0.000000000000000E+000	-1.39353	0.00387069	0.000000000000000E+000	0.00387069	0	0	-1.4	0.000000000000000E+000	-0.000953242
2	1	0	0	0	0	1	1215.68	-0.00248931	-0.445804	0.010023	0.00904675	-0.445804	0	0.000000000000000E+000	-2.88293e-05	0.000000000000000E+000	2.37762e+06	-0.896153	0.445804	0.000000000000000E+000	0.445804	0	0.010023	0	0.000000000000000E+000	-8.10727e-06
2	1	0	0	0	0	1	2425.68	-0.000638271	-0.600434	0.010023	0.00889404	-0.600434	0	0.000000000000000E+000	-3.02177e-05	0.000000000000000E+000	3.20158e+06	-0.229778	0.600434	0.000000000000000E+000	0.600434	0	0.010023	0	0.000000000000000E+000	-2.04365e-06
2	1	0	0	0	0	1	3635.68	-0.000333958	-0.654644	0.010023	0.00898948	-0.654644	0	0.000000000000000E+000	-3.07042e-05	0.000000000000000E+000	3.49113e+06	-0.120225	0.654644	0.000000000000000E+000	0.654644	0	0.010023	0	0.000000000000000E+000	-1.08076e-06
2	1	0	0	0	0	1	4845.68	-0.000224021	-0.687394	0.010023	0.00891313	-0.687394	0	0.000000000000000E+000	-3.09982e-05	0.000000000000000E+000	3.66537e+06	-0.0806475	0.687394	0.000000000000000E+000	0.687394	0	0.010023	0	0.000000000000000E+000	-7.18822e-07
2	1	0	0	0	0	1	6055.68	-0.000175185	-0.711146	0.010023	0.00904675	-0.711146	0	0.000000000000000E+000	-3.12117e-05	0.000000000000000E+000	3.79277e+06	-0.0630666	0.711146	0.000000000000000E+000	0.711146	0	0.010023	0	0.000000000000000E+000	-5.70548e-07
2	1	0	0	0	0	1	7265.68	-0.000141324	-0.730016	0.010023	0.00891313	-0.730016	0	0.000000000000000E+000	-3.13813e-05	0.000000000000000E+000	3.89264e+06	-0.0508765	0.730016	0.000000000000000E+000	0.730016	0	0.010023	0	0.000000000000000E+000	-4.53469e-07
1	1	0	1	0	0	2	8465.68	0.00388722	-0.577271	1.4	0.195814	0.163262	2	2.68262e-05	0.000000000000000E+000	5.08741e+06	0.000000000000000E+000	1.3994	0.000000000000000E+000	0.163262	0.163262	0	0	1.4	1	0.000274022
2	1	0	0	0	0	2	9670.9	0.000602591	-0.167648	1.49992	1.4989	0.572886	2	0.000205049	0.000000000000000E+000	1.45381e+06	0.000000000000000E+000	0.216933	0.000000000000000E+000	0.572886	0.572886	0	1.49992	0	1	0.00032516
2	1	0	0	0	0	2	10880.9	7.29916e-05	-0.145248	1.49992	1.49882	0.595285	2	0.000238623	0.000000000000000E+000	1.51073e+06	0.000000000000000E+000	0.026277	0.000000000000000E+000	0.595285	0.595285	0	1.49992	0	1	3.93844e-05
2	1	0	0	0	0	2	12090.9	3.08421e-05	-0.139625	1.49992	1.49895	0.600909	2	0.000247053	0.000000000000000E+000	1.52486e+06	0.000000000000000E+000	0.0111032	0.000000000000000E+000	0.600909	0.600909	0	1.49992	0	1	1.66431e-05
[...]
2	1	0	0	0	0	4	37478.1	7.95664e-05	-1.51055	1.49992	1.49893	4.19609	4	0.000410077	0.000000000000000E+000	1.00872e+07	0.000000000000000E+000	0.0286439	0.000000000000000E+000	4.19609	4.19609	0	1.49992	0	2	4.29353e-05
2	1	0	0	0	0	4	38688.1	3.21265e-05	-1.50576	1.49992	1.49897	4.20088	4	0.00041726	0.000000000000000E+000	1.00985e+07	0.000000000000000E+000	0.0115655	0.000000000000000E+000	4.20088	4.20088	0	1.49992	0	2	1.73364e-05
2	1	0	0	0	0	4	39898.1	2.5045e-05	-1.50235	1.49992	1.49901	4.20428	4	0.000422359	0.000000000000000E+000	1.01064e+07	0.000000000000000E+000	0.00901621	0.000000000000000E+000	4.20428	4.20428	0	1.49992	0	2	1.35154e-05
2	1	0	0	0	0	4	41108.1	2.0343e-05	-1.49962	1.49992	1.49893	4.20702	4	0.000426466	0.000000000000000E+000	1.01135e+07	0.000000000000000E+000	0.00732348	0.000000000000000E+000	4.20702	4.20702	0	1.49992	0	2	1.09774e-05
2	1	0	0	0	1	4	42298.1	1.69529e-05	-1.49741	1.49992	1.49873	4.20922	4	0.000429764	0.000000000000000E+000	1.01202e+07	0.000000000000000E+000	0.00610305	0.000000000000000E+000	4.20922	4.20922	0	1.49992	0	2	9.14681e-06
2	1	0	0	0	1	4	43508.1	1.44943e-05	-1.49555	1.49992	1.49876	4.21109	4	0.000432566	0.000000000000000E+000	1.01245e+07	0.000000000000000E+000	0.00521796	0.000000000000000E+000	4.21109	4.21109	0	1.49992	0	2	7.8205e-06
2	1	0	0	0	1	4	44718.1	1.26952e-05	-1.49387	1.49992	1.49878	4.21276	4	0.000435072	0.000000000000000E+000	1.01283e+07	0.000000000000000E+000	0.00457027	0.000000000000000E+000	4.21276	4.21276	0	1.49992	0	2	6.84985e-06
2	1	0	0	0	1	4	45928.1	1.09462e-05	-1.49241	1.49992	1.49869	4.21422	4	0.000437258	0.000000000000000E+000	1.01325e+07	0.000000000000000E+000	0.00394062	0.000000000000000E+000	4.21422	4.21422	0	1.49992	0	2	5.90576e-06
2	1	0	0	0	1	4	47138.1	9.57494e-06	-1.49116	1.49992	1.49875	4.21548	4	0.000439141	0.000000000000000E+000	1.01351e+07	0.000000000000000E+000	0.00344698	0.000000000000000E+000	4.21548	4.21548	0	1.49992	0	2	5.16615e-06
2	1	0	0	0	1	4	48348.1	8.77606e-06	-1.49006	1.49992	1.49873	4.21658	4	0.000440791	0.000000000000000E+000	1.01379e+07	0.000000000000000E+000	0.00315938	0.000000000000000E+000	4.21658	4.21658	0	1.49992	0	2	4.73505e-06
2	1	0	0	0	0	4	49538.1	8.16572e-06	-1.48904	1.49992	1.49871	4.21759	4	0.000442313	0.000000000000000E+000	1.01405e+07	0.000000000000000E+000	0.00293966	0.000000000000000E+000	4.21759	4.21759	0	1.49992	0	2	4.40569e-06
2	1	0	0	0	0	4	50748.1	7.56132e-06	-1.48809	1.49992	1.49871	4.21855	4	0.000443742	0.000000000000000E+000	1.01428e+07	0.000000000000000E+000	0.00272207	0.000000000000000E+000	4.21855	4.21855	0	1.49992	0	2	4.07959e-06
2	1	0	0	0	0	4	51958.1	6.80546e-06	-1.48721	1.49992	1.49884	4.21942	4	0.000445055	0.000000000000000E+000	1.0144e+07	0.000000000000000E+000	0.00244997	0.000000000000000E+000	4.21942	4.21942	0	1.49992	0	2	3.67211e-06
2	1	0	0	0	0	4	53168.1	7.03605e-06	-1.48639	1.49992	1.49878	4.22024	4	0.000446283	0.000000000000000E+000	1.01463e+07	0.000000000000000E+000	0.00253298	0.000000000000000E+000	4.22024	4.22024	0	1.49992	0	2	3.79638e-06
2	1	0	0	0	0	4	54378.1	5.4556e-06	-1.48554	1.49992	1.49875	4.22109	4	0.00044756	0.000000000000000E+000	1.01486e+07	0.000000000000000E+000	0.00196401	0.000000000000000E+000	4.22109	4.22109	0	1.49992	0	2	2.94356e-06
2	1	0	0	0	0	4	55588.1	5.52333e-06	-1.48486	1.49992	1.4988	4.22177	4	0.000448577	0.000000000000000E+000	1.01499e+07	0.000000000000000E+000	0.0019884	0.000000000000000E+000	4.22177	4.22177	0	1.49992	0	2	2.98022e-06
2	1	0	0	0	0	4	55998.1	5.2252e-06	-1.48464	1.49992	1.49878	4.22199	4	0.000448903	0.000000000000000E+000	1.01505e+07	0.000000000000000E+000	0.00188103	0.000000000000000E+000	4.22199	4.22199	0	1.49992	0	2	2.81926e-06

File: Pattern6Chronology.csv
cycle_number,max_stress,start_stress,stress_change,capacity_start_mAhg,capacity_end_mAhg,charge_current
1,NaN,NaN,NaN,318.032,330.443,-0.345263
2,NaN,NaN,NaN,303.617,314.252,-0.345275
3,NaN,NaN,NaN,289.955,299.468,-0.345415
4,NaN,NaN,NaN,128.634,282.679,-8.39619
5,NaN,NaN,NaN,111.223,276.034,-8.39652
6,0.16112,-0.59559,0.756711,114.496,272.498,-8.39662
7,0.362302,-0.0805155,0.442817,119.402,119.513,-8.39662
8,0.194611,-0.0392056,0.233816,117.767,118.361,-8.39668
9,-0.140965,0.122934,-0.263899,119.315,119.315,-8.39666
10,-1.70421,0.0793943,-1.7836,259.314,267.011,-0.345325
11,-3.5112,-0.0410439,-3.47016,252.597,260.538,-0.350528
12,-4.46807,0.840586,-5.30866,245.672,253.216,-0.350418
13,-1.89186,1.32122,-3.21308,109.627,237.339,-8.39974
14,-1.50797,0.181771,-1.68974,101.447,230.066,-8.39985
15,-1.67883,-0.0957089,-1.58312,98.1742,224.481,-8.39981
16,-1.7734,-0.329602,-1.4438,96.5387,96.8549,-8.39986
17,-2.00108,-0.60895,-1.39213,91.6299,92.0321,-8.39987
18,-2.42724,-0.777841,-1.64939,89.996,90.9262,-8.3999
19,-5.47154,-0.989976,-4.48156,210.626,218.369,-0.350345
20,-5.48615,-0.569314,-4.91684,200.753,208.746,-0.350305
21,-3.43238,-0.8548,-2.57758,146.457,200.328,-4.20028
22,-4.41284,-0.636624,-3.77621,144.003,190.632,-4.20029
23,-4.36292,-0.636146,-3.72677,141.552,186.069,-4.2003
24,-4.37053,-0.629667,-3.74087,138.284,139.239,-4.20049
25,-4.36232,-0.707942,-3.65438,135.012,179.623,-4.20053
26,-4.29789,-0.52238,-3.77551,131.738,132.188,-4.20053
27,-4.3256,-0.770219,-3.55538,128.441,128.441,-4.20049
28,-4.12712,-0.878118,-3.249,123.554,124.218,-4.20053
29,-2.83759,-0.994604,-1.84299,50.7262,696.271,-8.40029
30,NaN,NaN,NaN,19.6358,615.619,-8.40031
31,NaN,NaN,NaN,4.90882,522.777,-8.40031
32,-1.85313,-0.558539,-1.29459,22.914,51.9308,-1.40051
33,-1.0255,-1.0255,0,1.50604,390.715,-6.74464